maintenance career chest extent sign church farmer chocolate volume reputation world job object style technology cousin exercise fat economy child woman sister unit marketing action day instance selection movie subject decision consequence inspection soup fact difficulty depression map description power description map depression difficulty fact soup inspection consequence decision subject movie selection instance day action marketing unit sister woman child economy fat exercise cousin technology style object job world reputation volume chocolate farmer church sign extent chest career maintenance future class version philosophy role period software cause obligation income war contract cigarette bread tool result drawing speaker feature nothing salad improvement standard property measurement coast wife price theory account meaning investment temperature resolution photo permission patience beer value assumption complaint driver sport rate competition product frame population average bank context year presence rock wood credit example focus scene hope scene focus example credit wood rock presence year context bank average population frame product competition rate sport driver complaint assumption value beer patience permission photo resolution temperature investment meaning account theory price wife coast measurement property standard improvement salad nothing feature speaker drawing result tool bread cigarette contract war income obligation cause software period role philosophy version class future maintenance
50
philosophy philosophy
object object
competition competition
war war
style style
church church
wife wife
sign sign
complaint complaint
sister sister
cause cause
economy economy
contract contract
price price
rate rate
income income
role role
driver driver
career career
inspection inspection
average average
focus focus
action action
reputation reputation
account account
movie movie
description description
day day
depression depression
chest chest
beer beer
salad salad
photo photo
difficulty difficulty
context context
maintenance maintenance
population population
version version
example example
resolution resolution
rock rock
marketing marketing
future future
feature feature
obligation obligation
bread bread
volume volume
property property
selection selection
woman woman
